Folder: XRD_analysis

File: 188_XRD.txt
Angle	Intensity
25.008	1.28E-02
25.161	2.20E-02
25.314	-1.08E-03
25.467	5.77E-03
25.62	-5.00E-03
25.773	-7.06E-03
25.926	2.83E-04
26.079	3.24E-02
26.232	-1.54E-02
26.385	2.74E-02
26.538	5.70E-03
26.691	-2.72E-02
26.844	-1.07E-02
26.997	7.85E-03
27.15	3.12E-02
27.303	4.62E-03
27.456	4.95E-03
27.609	-2.83E-03
27.762	2.01E-02
27.915	2.05E-02
28.068	3.57E-02
28.221	6.11E-02
28.374	7.65E-02
28.527	1.14E-01
28.68	4.55E-02
28.833	9.25E-03
28.986	1.92E-02
29.139	1.68E-02
29.292	1.52E-02
29.445	1.88E-02
29.598	1.14E-02
29.751	2.54E-02
29.904	1.82E-02
30.057	3.66E-02
30.21	4.04E-02
30.363	2.53E-02
30.516	3.36E-02
30.669	3.46E-02
30.822	2.32E-02
30.975	2.80E-02
31.128	3.57E-02
31.281	4.93E-02
31.434	2.78E-02
31.587	1.44E-02
31.74	3.24E-02
31.893	5.87E-03
32.046	2.17E-02
32.199	1.35E-02
32.352	1.54E-03
32.505	1.74E-02
32.658	2.52E-02
32.811	3.88E-02
32.964	5.17E-02
33.117	2.29E-02
33.27	2.32E-02
33.423	3.45E-02
33.576	1.94E-02
33.729	2.18E-02
33.882	1.54E-02
34.035	1.03E-02
34.188	1.90E-02
34.341	2.40E-02
34.494	1.81E-03
34.647	2.92E-02
34.8	9.58E-04
34.953	1.64E-02
35.106	1.42E-02
35.259	3.37E-02
35.412	3.33E-02
35.565	1.95E-02
35.718	1.80E-02
35.871	1.41E-02
36.024	9.93E-03
36.177	1.14E-02
36.33	2.57E-02
36.483	2.08E-02
36.636	3.46E-02
36.789	5.64E-03
36.942	4.91E-03
37.095	9.70E-03
37.248	1.34E-02
37.401	1.45E-02
37.554	1.68E-02
37.707	1.27E-02
37.86	1.34E-02
38.013	3.78E-02
38.166	9.24E-02
38.319	1.85E-01
38.472	2.19E-01
38.625	1.61E-01
38.778	7.15E-02
38.931	3.22E-02
39.084	3.43E-03
39.237	1.94E-02
39.39	3.71E-02
39.543	5.06E-02
39.696	8.92E-02
39.849	1.13E-01
40.002	1.48E-01
40.155	1.57E-01
40.308	1.36E-01
40.461	1.08E-01
40.614	6.53E-02
40.767	3.77E-02
40.92	-9.82E-03
41.073	-2.02E-02
41.226	-1.38E-02
41.379	-1.96E-03
41.532	2.67E-02
41.685	1.68E-01
41.838	1.13E+01
41.991	5.75E-02
42.144	1.53E-02
42.297	-1.80E-04
42.45	1.55E-02
42.603	1.72E-02
42.756	3.51E-02
42.909	7.03E-03
43.062	1.06E-02
43.215	1.52E-02
43.368	2.01E-02
43.521	1.07E-02
43.674	1.12E-02
43.827	2.24E-02
43.98	2.60E-02
44.133	1.11E-02
44.286	-1.92E-03
44.439	1.05E-02
44.592	3.97E-03
44.745	1.71E-02
44.898	2.53E-03
45.051	1.79E-02
45.204	5.49E-03
45.357	1.36E-02
45.51	4.08E-03
45.663	9.96E-03
45.816	7.81E-03
45.969	1.08E-02
46.122	1.37E-02
46.275	1.09E-02
46.428	5.79E-03
46.581	2.12E-02
46.734	1.40E-02
46.887	1.91E-02
47.04	2.65E-02
47.193	3.83E-02
47.346	5.23E-02
47.499	2.97E-02
47.652	2.02E-02
47.805	1.23E-02
47.958	1.23E-02
48.111	9.50E-03
48.264	4.47E-03
48.417	3.10E-03
48.57	2.07E-02
48.723	1.79E-02
48.876	1.51E-02
49.029	-1.75E-04
49.182	9.43E-03
49.335	2.22E-03
49.488	1.26E-02
49.641	8.28E-03
49.794	3.26E-03
49.947	1.07E-02
50.1	6.40E-03
50.253	4.31E-03
50.406	-8.75E-03
50.559	9.64E-03
50.712	2.43E-03
50.865	3.37E-04
51.018	4.83E-03
51.171	4.93E-03
51.324	5.03E-03
51.477	1.02E-05
51.63	8.88E-03
51.783	3.13E-03
51.936	-9.94E-03
52.089	7.70E-03
52.242	7.79E-03
52.395	1.01E-02
52.548	1.24E-02
52.701	4.39E-03
52.854	1.25E-02
53.007	8.89E-04
53.16	5.35E-03
53.313	-1.16E-03
53.466	2.01E-02
53.619	-1.03E-03
53.772	1.73E-02
53.925	1.23E-02
54.078	7.19E-03
54.231	6.52E-04
54.384	2.16E-03
54.537	1.10E-02
54.69	8.09E-03
54.843	1.84E-02
54.996	1.11E-02
55.149	2.35E-02
55.302	1.04E-02
55.455	1.99E-02
55.608	1.04E-02
55.761	1.19E-02
55.914	2.51E-02
56.067	4.04E-02
56.22	4.41E-02
56.373	3.97E-02
56.526	1.92E-02
56.679	2.95E-02
56.832	1.56E-02
56.985	8.27E-03
57.138	2.29E-02
57.291	1.85E-02
57.444	8.27E-03
57.597	1.19E-02
57.75	1.78E-02
57.903	1.41E-02
58.056	2.07E-02
58.209	5.37E-03
58.362	1.20E-02
58.515	2.66E-02
58.668	2.95E-02
58.821	5.88E-02
58.974	5.59E-02
59.127	5.59E-02
59.28	6.98E-02
59.433	4.79E-02
59.586	2.82E-02
59.739	2.89E-02
59.892	2.09E-02
60.045	1.94E-02
60.198	1.94E-02
60.351	9.93E-03
60.504	8.48E-03
60.657	2.46E-02
60.81	9.95E-03
60.963	6.30E-03
61.116	1.07E-02
61.269	1.36E-02
61.422	1.65E-02
61.575	4.85E-03
61.728	6.31E-03
61.881	1.51E-02
62.034	3.39E-03
62.187	1.95E-02
62.34	-9.95E-04
62.493	4.12E-03
62.646	1.22E-02
62.799	1.29E-02
62.952	5.59E-03
63.105	1.93E-03
63.258	-5.39E-03
63.411	5.58E-03
63.564	3.38E-03
63.717	1.21E-02
63.87	4.83E-03
64.023	1.36E-02
64.176	1.88E-03
64.329	8.45E-03
64.482	5.51E-03
64.635	3.18E-02
64.788	2.52E-02
64.941	2.67E-02
65.094	3.25E-02
65.247	1.93E-02
65.4	1.49E-02
65.553	1.63E-02
65.706	1.55E-02
65.859	1.11E-02
66.012	-6.87E-04
66.165	-1.32E-05
66.318	5.78E-03
66.471	1.08E-02
66.624	1.00E-02
66.777	8.53E-03
66.93	7.74E-03
67.083	6.23E-03
67.236	6.19E-03
67.389	1.20E-02
67.542	1.20E-02
67.695	2.40E-04
67.848	1.12E-02
68.001	1.65E-03
68.154	1.77E-02
68.307	8.87E-04
68.46	8.72E-04
68.613	5.98E-03
68.766	1.18E-02
68.919	8.89E-03
69.072	5.22E-03
69.225	-6.37E-04
69.378	8.21E-04
69.531	6.67E-03
69.684	7.40E-03
69.837	6.67E-03
69.99	8.22E-05