Folder: XRD_analysis/.ipynb_checkpoints

Note: .ipynb_checkpoints/README-checkpoint.md
# XRD_analysis

# Code allows for the loading of either text or csv files, however this has to be writtin into the code yourself. Need to create a function that will allow for the recognition of file type and use the appropriate file loader

# Plotted input data using the matplotlib software.
# Removed any data points that were below zero.  This data points came about because of the noise in the machine. 

# Utilised a smoothing factor with python code itself.  This reduced the overall noise and aids for peak identification.
# Utilised peak finding procedure within the peakutils module.  This allows you to set the minimum amplitude of the peak.  The program then determines all y values that are above this value and their corresponding x values.  An issue with this is the noise means that only large peaks are able to be identified reliable.  Reducing the minimum amplitude for consideration results in multiple false peaks being identified.  This issue may need to looked at again to determine its worth.

# Multipeak_Fitting_Example

# Multipeak fitting has been attempted successfully on test data generated with the python environment.  However, this procedure looks promising, however you have to manually implement choose how many peaks within your data that you want to fit and what kind of peak you want to fit, e.g. Gaussian, Lorentzian etc.  This is fine for the ideal data as we know what kind of data is being fit as we are self generating it.  

# To fit the XRD data itself, I think we need to create a function that you either choose what kind of peaks that you want to fit and perform a R-squared or other statistical measurement to determine which fit is the best.  However, this would be a very labourious task if the data contains lots of peaks, where it is not clear what kind of peak will be needed to create the best fit.  

# I am hoping to create code that will either identify each peak or has some sort of user input for the number of peaks and their approximate location with the specta.  I would then try and implement a procedure where the code plots each peak with the three main peak types, Gaussian, Lorentzian and Voigt/PseudoVoigt and fits each peak with the peak that produces the least statiscal divergence.  

# This is the end goal of the software, however, this may be beyond my capabilities at present.

# JAMES CROSBY

File: 188_XRD-checkpoint.txt
25.0080	1.2836e-02
25.1610	2.1993e-02
25.3140	-1.0824e-03
25.4670	5.7713e-03
25.6200	-4.9959e-03
25.7730	-7.0644e-03
25.9260	2.8332e-04
26.0790	3.2389e-02
26.2320	-1.5354e-02
26.3850	2.7445e-02
26.5380	5.7003e-03
26.6910	-2.7224e-02
26.8440	-1.0655e-02
26.9970	7.8476e-03
27.1500	3.1213e-02
27.3030	4.6210e-03
27.4560	4.9450e-03
27.6090	-2.8305e-03
27.7620	2.0141e-02
27.9150	2.0526e-02
28.0680	3.5654e-02
28.2210	6.1149e-02
28.3740	7.6529e-02
28.5270	1.1397e-01
28.6800	4.5468e-02
28.8330	9.2464e-03
28.9860	1.9191e-02
29.1390	1.6784e-02
29.2920	1.5182e-02
29.4450	1.8766e-02
29.5980	1.1440e-02
29.7510	2.5377e-02
29.9040	1.8157e-02
30.0570	3.6580e-02
30.2100	4.0420e-02
30.3630	2.5280e-02
30.5160	3.3586e-02
30.6690	3.4614e-02
30.8220	2.3245e-02
30.9750	2.8004e-02
31.1280	3.5716e-02
31.2810	4.9309e-02
31.4340	2.7819e-02
31.5870	1.4394e-02
31.7400	3.2436e-02
31.8930	5.8734e-03
32.0460	2.1739e-02
32.1990	1.3472e-02
32.3520	1.5438e-03
32.5050	1.7401e-02
32.6580	2.5199e-02
32.8110	3.8828e-02
32.9640	5.1699e-02
33.1170	2.2850e-02
33.2700	2.3213e-02
33.4230	3.4504e-02
33.5760	1.9407e-02
33.7290	2.1802e-02
33.8820	1.5352e-02
34.0350	1.0279e-02
34.1880	1.9019e-02
34.3410	2.4002e-02
34.4940	1.8121e-03
34.6470	2.9242e-02
34.8000	9.5829e-04
34.9530	1.6410e-02
35.1060	1.4160e-02
35.2590	3.3690e-02
35.4120	3.3296e-02
35.5650	1.9541e-02
35.7180	1.8019e-02
35.8710	1.4090e-02
36.0240	9.9335e-03
36.1770	1.1382e-02
36.3300	2.5730e-02
36.4830	2.0789e-02
36.6360	3.4577e-02
36.7890	5.6416e-03
36.9420	4.9111e-03
37.0950	9.6967e-03
37.2480	1.3400e-02
37.4010	1.4541e-02
37.5540	1.6762e-02
37.7070	1.2726e-02
37.8600	1.3395e-02
38.0130	3.7770e-02
38.1660	9.2416e-02
38.3190	1.8536e-01
38.4720	2.1932e-01
38.6250	1.6064e-01
38.7780	7.1459e-02
38.9310	3.2227e-02
39.0840	3.4334e-03
39.2370	1.9442e-02
39.3900	3.7089e-02
39.5430	5.0613e-02
39.6960	8.9241e-02
39.8490	1.1301e-01
40.0020	1.4837e-01
40.1550	1.5679e-01
40.3080	1.3644e-01
40.4610	1.0757e-01
40.6140	6.5318e-02
40.7670	3.7712e-02
40.9200	-9.8233e-03
41.0730	-2.0182e-02
41.2260	-1.3849e-02
41.3790	-1.9627e-03
41.5320	2.6710e-02
41.6850	1.6788e-01
41.8380	1.1252e+01
41.9910	5.7499e-02
42.1440	1.5338e-02
42.2970	-1.7961e-04
42.4500	1.5522e-02
42.6030	1.7246e-02
42.7560	3.5111e-02
42.9090	7.0341e-03
43.0620	1.0597e-02
43.2150	1.5177e-02
43.3680	2.0073e-02
43.5210	1.0699e-02
43.6740	1.1224e-02
43.8270	2.2434e-02
43.9800	2.6021e-02
44.1330	1.1071e-02
44.2860	-1.9157e-03
44.4390	1.0546e-02
44.5920	3.9683e-03
44.7450	1.7142e-02
44.8980	2.5274e-03
45.0510	1.7903e-02
45.2040	5.4902e-03
45.3570	1.3560e-02
45.5100	4.0804e-03
45.6630	9.9640e-03
45.8160	7.8060e-03
45.9690	1.0771e-02
46.1220	1.3741e-02
46.2750	1.0863e-02
46.4280	5.7943e-03
46.5810	2.1208e-02
46.7340	1.3953e-02
46.8870	1.9134e-02
47.0400	2.6513e-02
47.1930	3.8284e-02
47.3460	5.2252e-02
47.4990	2.9654e-02
47.6520	2.0224e-02
47.8050	1.2259e-02
47.9580	1.2342e-02
48.1110	9.5026e-03
48.2640	4.4713e-03
48.4170	3.0991e-03
48.5700	2.0746e-02
48.7230	1.7915e-02
48.8760	1.5086e-02
49.0290	-1.7476e-04
49.1820	9.4332e-03
49.3350	2.2205e-03
49.4880	1.2562e-02
49.6410	8.2772e-03
49.7940	3.2615e-03
49.9470	1.0680e-02
50.1000	6.3966e-03
50.2530	4.3074e-03
50.4060	-8.7526e-03
50.5590	9.6370e-03
50.7120	2.4274e-03
50.8650	3.3690e-04
51.0180	4.8281e-03
51.1710	4.9300e-03
51.3240	5.0306e-03
51.4770	1.0197e-05
51.6300	8.8845e-03
51.7830	3.1293e-03
51.9360	-9.9417e-03
52.0890	7.7036e-03
52.2420	7.7934e-03
52.3950	1.0075e-02
52.5480	1.2354e-02
52.7010	4.3908e-03
52.8540	1.2515e-02
53.0070	8.8942e-04
53.1600	5.3513e-03
53.3130	-1.1611e-03
53.4660	2.0116e-02
53.6190	-1.0303e-03
53.7720	1.7315e-02
53.9250	1.2252e-02
54.0780	7.1851e-03
54.2310	6.5215e-04
54.3840	2.1606e-03
54.5370	1.0979e-02
54.6900	8.0923e-03
54.8430	1.8366e-02
54.9960	1.1083e-02
55.1490	2.3543e-02
55.3020	1.0401e-02
55.4550	1.9928e-02
55.6080	1.0435e-02
55.7610	1.1908e-02
55.9140	2.5080e-02
56.0670	4.0443e-02
56.2200	4.4100e-02
56.3730	3.9712e-02
56.5260	1.9234e-02
56.6790	2.9474e-02
56.8320	1.5578e-02
56.9850	8.2657e-03
57.1380	2.2895e-02
57.2910	1.8509e-02
57.4440	8.2719e-03
57.5970	1.1932e-02
57.7500	1.7786e-02
57.9030	1.4134e-02
58.0560	2.0721e-02
58.2090	5.3674e-03
58.3620	1.1957e-02
58.5150	2.6592e-02
58.6680	2.9527e-02
58.8210	5.8794e-02
58.9740	5.5881e-02
59.1270	5.5896e-02
59.2800	6.9809e-02
59.4330	4.7885e-02
59.5860	2.8154e-02
59.7390	2.8902e-02
59.8920	2.0871e-02
60.0450	1.9421e-02
60.1980	1.9431e-02
60.3510	9.9323e-03
60.5040	8.4771e-03
60.6570	2.4574e-02
60.8100	9.9519e-03
60.9630	6.2996e-03
61.1160	1.0692e-02
61.2690	1.3621e-02
61.4220	1.6549e-02
61.5750	4.8494e-03
61.7280	6.3142e-03
61.8810	1.5092e-02
62.0340	3.3915e-03
62.1870	1.9483e-02
62.3400	-9.9524e-04
62.4930	4.1249e-03
62.6460	1.2170e-02
62.7990	1.2902e-02
62.9520	5.5870e-03
63.1050	1.9282e-03
63.2580	-5.3887e-03
63.4110	5.5781e-03
63.5640	3.3787e-03
63.7170	1.2149e-02
63.8700	4.8267e-03
64.0230	1.3594e-02
64.1760	1.8799e-03
64.3290	8.4488e-03
64.4820	5.5076e-03
64.6350	3.1820e-02
64.7880	2.5216e-02
64.9410	2.6655e-02
65.0940	3.2479e-02
65.2470	1.9283e-02
65.4000	1.4860e-02
65.5530	1.6283e-02
65.7060	1.5507e-02
65.8590	1.1069e-02
66.0120	-6.8692e-04
66.1650	-1.3223e-05
66.3180	5.7778e-03
66.4710	1.0837e-02
66.6240	1.0046e-02
66.7770	8.5273e-03
66.9300	7.7439e-03
67.0830	6.2339e-03
67.2360	6.1916e-03
67.3890	1.2005e-02
67.5420	1.1972e-02
67.6950	2.4023e-04
67.8480	1.1185e-02
68.0010	1.6549e-03
68.1540	1.7726e-02
68.3070	8.8683e-04
68.4600	8.7207e-04
68.6130	5.9793e-03
68.7660	1.1820e-02
68.9190	8.8851e-03
69.0720	5.2206e-03
69.2250	-6.3654e-04
69.3780	8.2144e-04
69.5310	6.6691e-03
69.6840	7.3981e-03
69.8370	6.6652e-03
69.9900	8.2170e-05